Folder: PPD/Experiment_RB/Manuel_Paul/Data/XRD

Note: README.md
<h1 align="center">Physikalisches Praktikum D</h1>

## Einleitung
Dieses Repository enthält mehrere Auswertung und Daten zu den Versuchen im Master Physik an der Universität Bayreuth in Rahmen des Fortgeschrittenen Physikalischen Praktikum D geführt von ``Dr. Uwe Gerken``.

Die Auswertungen dienen zur **Hilfe** und sollen nicht die Eigenleistung erleichtern. Deswegen weise ich darauf hin selbst Arbeit in **seine** Auswertungen zu stecken und die Fragen zur Vorbereitung **gewissenhaft** zu erledigen, da sie **notwendig** sind für das Verständnis zum jeweiligen Versuch.

[LateX Vorlage](https://github.com/Phi-Laboratorys/PPVorlage) für digitale Protokolle.


* * *

#### Master Praktikum - Gruppen

| Nr | Gruppenmitglieder  <img width=400/>                                                 | <img width=20/> Jahr <img width=20/>    |
|:--:|:------------------------------------------------------------------------------------|:---------:|
| 1  | [Manuel Lippert](https://github.com/ManeLippert), Paul Schwanitz                    |   2023    |
<!-- | 2  | Dominik Müller, Stefan Barthelmann                                                  |   2023    |
| 3  | Leonhard Schatt, Matteo Kumar                                                       |   2023    |-->

## [Master Praktikum D](https://github.com/Phi-Laboratorys/PPD)

| <img width=70/> | Beschreibung <img width=400/>                                               | <img width=20/> Gruppen <img width=20/> |
|:-------:|:------------------------------------------------------------------------------------|:-----------:|
| HMS     | Hochstauflösende Molekülspektroskopie                                               | [1](https://github.com/Phi-Laboratorys/PPD/blob/main/Versuch_HMS/Manuel_Paul/Versuch_HMS.pdf)        |
| DF      | Dünnfilmprozessierungstechniken und Filmhomogenität                                 | [1](https://github.com/Phi-Laboratorys/PPD/blob/main/Versuch_DF/Manuel_Paul/Versuch_DF.pdf) <!--,[3](https://github.com/Phi-Laboratorys/PPD/blob/main/Versuch_DF/Leo_Matteo/Versuch_DF.pdf)--> |
| RB      | Röntgenbeugung                                                                      | [1](https://github.com/Phi-Laboratorys/PPD/blob/main/Experiment_RB/Manuel_Paul/Experiment_RB.pdf) <!--, [2](https://github.com/Phi-Laboratorys/PPD/blob/main/Versuch_RB/Dominik_Stefan/Versuch_RB.pdf), [3](https://github.com/Phi-Laboratorys/PPD/blob/main/Versuch_RB/Leo_Matteo/Versuch_RB.pdf)-->  |
| TRAS    | Transiente Absorptionsspektroskopie                                                 | [1](https://github.com/Phi-Laboratorys/PPD/blob/main/Experiment_TRAS/Manuel_Paul/Experiment_TRAS.pdf) <!--, [3](https://github.com/Phi-Laboratorys/PPD/blob/main/Versuch_TAS/Leo_Matteo/Versuch_TAS.pdf)-->    |
| NP      | Nanoplasmonik                                                                       | [1](https://github.com/Phi-Laboratorys/PPD/blob/main/Versuch_NP/Manuel_Paul/Versuch_NP.pdf) <!--, [3](https://github.com

File: Dextrose_G1.dat
10	8.70381
10.168	11.9975
10.336	10.0119
10.504	12.7135
10.672	11.8752
10.84	11.1105
11.008	11.3906
11.176	9.99666
11.344	10.3561
11.512	10.1547
11.68	9.68581
11.848	10.4108
12.016	13.6429
12.184	10.3084
12.352	9.74376
12.52	7.65618
12.688	17.2431
12.856	87.9445
13.024	56.2206
13.192	8.40307
13.36	7.12792
13.528	8.74608
13.696	8.76216
13.864	6.43139
14.032	6.82577
14.2	7.25048
14.368	6.76449
14.536	11.6882
14.704	47.3997
14.872	12.967
15.04	6.9906
15.208	7.80554
15.376	7.92193
15.544	7.25746
15.712	6.08939
15.88	7.03792
16.048	6.64809
16.216	7.06098
16.384	6.60845
16.552	9.09222
16.72	8.94256
16.888	7.55668
17.056	8.33118
17.224	10.5801
17.392	8.61796
17.56	7.23339
17.728	7.84488
17.896	7.58236
18.064	7.20275
18.232	8.82556
18.4	27.3645
18.568	120.079
18.736	50.2106
18.904	11.733
19.072	8.88664
19.24	8.82486
19.408	8.22358
19.576	12.7981
19.744	95.2792
19.912	186.734
20.08	24.5654
20.248	107.553
20.416	103.152
20.584	15.7427
20.752	28.2995
20.92	15.9041
21.088	8.75549
21.256	9.35221
21.424	10.3776
21.592	14.0321
21.76	28.4223
21.928	12.3674
22.096	8.88502
22.264	7.43462
22.432	9.85297
22.6	8.76064
22.768	46.0568
22.936	110.669
23.104	15.4092
23.272	10.9615
23.44	13.9072
23.608	30.4342
23.776	8.33097
23.944	7.51583
24.112	8.15431
24.28	7.17302
24.448	7.07382
24.616	7.94448
24.784	7.91263
24.952	9.56123
25.12	7.97138
25.288	9.47497
25.456	24.7536
25.624	55.3036
25.792	13.9407
25.96	7.98615
26.128	8.55648
26.296	8.09283
26.464	15.209
26.632	29.8137
26.8	14.9695
26.968	18.3715
27.136	12.8999
27.304	7.80251
27.472	11.2433
27.64	29.5057
27.808	30.5914
27.976	35.982
28.144	9.74881
28.312	58.0507
28.48	141.162
28.648	23.4574
28.816	8.57478
28.984	8.91303
29.152	7.25574
29.32	13.8632
29.488	51.9886
29.656	16.4071
29.824	8.92325
29.992	9.7026
30.16	9.96006
30.328	9.47164
30.496	6.71494
30.664	11.0695
30.832	16.6055
31	27.8433
31.168	87.3736
31.336	41.7725
31.504	13.4756
31.672	8.39953
31.84	8.87036
32.008	9.45798
32.176	10.5906
32.344	15.3937
32.512	25.0175
32.68	8.58803
32.848	9.25867
33.016	11.7055
33.184	13.8102
33.352	20.2269
33.52	29.4932
33.688	15.4931
33.856	24.6686
34.024	15.999
34.192	9.51643
34.36	10.7397
34.528	10.212
34.696	8.52119
34.864	10.303
35.032	8.55911
35.2	17.1917
35.368	35.7349
35.536	29.7776
35.704	41.98
35.872	36.6917
36.04	12.379
36.208	10.4716
36.376	12.7557
36.544	14.165
36.712	16.0067
36.88	23.9318
37.048	72.2932
37.216	19.3494
37.384	11.3319
37.552	17.6123
37.72	18.036
37.888	13.9921
38.056	9.64708
38.224	10.27
38.392	33.5443
38.56	11.1715
38.728	9.89483
38.896	9.78238
39.064	9.41025
39.232	9.99707
39.4	9.86621
39.568	8.68935
39.736	10.1993
39.904	10.9235
40.072	17.7861
40.24	36.7561
40.408	28.6014
40.576	9.80655
40.744	8.61189
40.912	10.2926
41.08	15.6651
41.248	20.5839
41.416	35.2777
41.584	52.8983
41.752	21.1532
41.92	10.1161
42.088	18.3581
42.256	32.3311
42.424	21.634
42.592	9.49843
42.76	10.7564
42.928	11.7487
43.096	10.7502
43.264	11.4152
43.432	8.34412
43.6	8.08282
43.768	9.39539
43.936	10.6902
44.104	16.1863
44.272	24.6624
44.44	15.8376
44.608	24.2951
44.776	16.4131
44.944	13.5861
45.112	21.5403
45.28	17.725
45.448	16.6904
45.616	13.8733
45.784	10.2517
45.952	8.67843
46.12	8.55385
46.288	8.39741
46.456	8.69977
46.624	11.2198
46.792	10.0402
46.96	12.0367
47.128	10.1394
47.296	8.84043
47.464	10.6049
47.632	12.6339
47.8	9.59713
47.968	8.64314
48.136	9.72171
48.304	10.8532
48.472	9.83375
48.64	17.4125
48.808	13.7725
48.976	16.996
49.144	18.443
49.312	17.5831
49.48	11.1397
49.648	10.4663
49.816	10.6042
49.984	12.396
50.152	10.1724
50.32	7.81535
50.488	8.08363
50.656	9.58671
50.824	11.6497
50.992	8.55536
51.16	8.29154
51.328	8.44555
51.496	8.46931
51.664	8.29042
51.832	8.00202
52	8.87714
52.168	8.32309
52.336	8.84751
52.504	14.7146
52.672	10.9849
52.84	8.67863
53.008	9.11245
53.176	14.3458
53.344	15.3828
53.512	15.2581
53.68	8.76074
53.848	9.50672
54.016	7.81919
54.184	9.24047
54.352	8.93619
54.52	11.2716
54.688	13.8867
54.856	9.91536
55.024	12.3201
55.192	12.8647
55.36	14.4649
55.528	9.84741
55.696	12.6138
55.864	12.3484
56.032	11.2019
56.2	8.31297
56.368	9.74082
56.536	9.75963
56.704	11.86
56.872	8.5945
57.04	8.09526
57.208	8.11599
57.376	9.41278
57.544	9.78795
57.712	16.3119
57.88	15.0367
58.048	9.4774
58.216	8.66296
58.384	7.69451
58.552	10.6723
58.72	12.0139
58.888	11.1314
59.056	10.6421
59.224	9.40661
59.392	8.52108
59.56	7.79199
59.728	9.19345
59.896	7.94181
60	10.8127

File: HG1_NaCl_01_55s_4523.ASC
 10.000        7
 10.240        8
 10.480        7
 10.720        5
 10.960        7
 11.200        0
 11.440       10
 11.680        6
 11.920        8
 12.160        5
 12.400        6
 12.640        7
 12.880        4
 13.120        4
 13.360        9
 13.600       13
 13.840        7
 14.080       14
 14.320        6
 14.560       15
 14.800        8
 15.040        4
 15.280       13
 15.520        7
 15.760       14
 16.000        5
 16.240        6
 16.480        4
 16.720        5
 16.960        7
 17.200        2
 17.440        7
 17.680        5
 17.920        4
 18.160        3
 18.400        7
 18.640        6
 18.880        3
 19.120        7
 19.360       11
 19.600        5
 19.840        9
 20.080        3
 20.320       10
 20.560        8
 20.800        2
 21.040       10
 21.280        7
 21.520        6
 21.760       10
 22.000        8
 22.240        5
 22.480        1
 22.720        4
 22.960        5
 23.200        3
 23.440        7
 23.680        2
 23.920        5
 24.160        4
 24.400        8
 24.640        7
 24.880        5
 25.120       10
 25.360        4
 25.600        8
 25.840        8
 26.080        7
 26.320       10
 26.560        4
 26.800        7
 27.040       27
 27.280        8
 27.520        6
 27.760        5
 28.000        8
 28.240        4
 28.480        5
 28.720        4
 28.960        2
 29.200        7
 29.440        8
 29.680        5
 29.920       10
 30.160        8
 30.400       10
 30.640        7
 30.880        6
 31.120       12
 31.360      386
 31.600      117
 31.840       11
 32.080        7
 32.320        6
 32.560        5
 32.800        7
 33.040        6
 33.280        9
 33.520        4
 33.760        6
 34.000        8
 34.240        7
 34.480       10
 34.720        5
 34.960        7
 35.200        7
 35.440        7
 35.680       13
 35.920        7
 36.160        4
 36.400        6
 36.640        9
 36.880        3
 37.120        4
 37.360        3
 37.600        2
 37.840        7
 38.080        6
 38.320        5
 38.560        4
 38.800        9
 39.040        6
 39.280        4
 39.520        5
 39.760        6
 40.000        2
 40.240        5
 40.480        2
 40.720        9
 40.960        7
 41.200        7
 41.440        3
 41.680        5
 41.920        7
 42.160        7
 42.400        7
 42.640        4
 42.880        8
 43.120        6
 43.360        8
 43.600        8
 43.840        6
 44.080        4
 44.320       10
 44.560        5
 44.800       10
 45.040      145
 45.280       84
 45.520       19
 45.760       11
 46.000        4
 46.240        7
 46.480        8
 46.720       10
 46.960        5
 47.200        5
 47.440        5
 47.680        4
 47.920        5
 48.160        3
 48.400        6
 48.640        9
 48.880        7
 49.120        6
 49.360        9
 49.600        7
 49.840        6
 50.080        3
 50.320        6
 50.560        7
 50.800        5
 51.040        8
 51.280        7
 51.520        9
 51.760        5
 52.000        3
 52.240        6
 52.480        6
 52.720        5
 52.960        5
 53.200        6
 53.440       11
 53.680        5
 53.920        6
 54.160        4
 54.400        3
 54.640        8
 54.880        6
 55.120        7
 55.360        2
 55.600       10
 55.840       10
 56.080       35
 56.320       30
 56.560        8
 56.800        4
 57.040        6
 57.280        5
 57.520        8
 57.760        2
 58.000        7
 58.240        3
 58.480        7
 58.720        5
 58.960       12
 59.200       11
 59.440        8
 59.680        1
 59.920        5
 60.160        4
 60.400        8
 60.640        3
 60.880        5
 61.120        7
 61.360        4
 61.600        3
 61.840        4
 62.080        4
 62.320       10
 62.560       10
 62.800        3
 63.040        8
 63.280        8
 63.520        2
 63.760        3
 64.000        6
 64.240        6
 64.480        9
 64.720        9
 64.960        9
 65.200        7
 65.440        7
 65.680       32
 65.920       11
 66.160       11
 66.400        6
 66.640       10
 66.880        8
 67.120        3
 67.360        9
 67.600        2
 67.840        3
 68.080        9
 68.320        4
 68.560        7
 68.800        9
 69.040       10
 69.280       10
 69.520        6
 69.760       10
 70.000        4
 70.240        5
 70.480        4
 70.720        4
 70.960       10
 71.200        7
 71.440        9
 71.680        4
 71.920        5
 72.160        4
 72.400       10
 72.640        6
 72.880       12
 73.120        5
 73.360        5
 73.600        2
 73.840        9
 74.080        7
 74.320        4
 74.560       14
 74.800       23
 75.040       13
 75.280       11
 75.520        8
 75.760        9
 76.000       10
 76.240        5
 76.480        9
 76.720        9
 76.960        5
 77.200        6
 77.440        2
 77.680        7
 77.920        7
 78.160       10
 78.400        7
 78.640        5
 78.880        5
 79.120        6
 79.360        6
 79.600        6
 79.840        8
 80.000       12