Folder: PPD/Experment_RB/Data/XRD

Note: README.md
<h1 align="center">Physikalisches Praktikum D</h1>

## Einleitung
Dieses Repository enthält mehrere Auswertung und Daten zu den Versuchen im Master Physik an der Universität Bayreuth in Rahmen des Fortgeschrittenen Physikalischen Praktikum D geführt von ``Dr. Uwe Gerken``.

Die Auswertungen dienen zur **Hilfe** und sollen nicht die Eigenleistung erleichtern. Deswegen weise ich darauf hin selbst Arbeit in **seine** Auswertungen zu stecken und die Fragen zur Vorbereitung **gewissenhaft** zu erledigen, da sie **notwendig** sind für das Verständnis zum jeweiligen Versuch.

[LateX Vorlage](https://github.com/Phi-Laboratorys/PPVorlage) für digitale Protokolle.


* * *

#### Master Praktikum - Gruppen

| Nr | Gruppenmitglieder  <img width=400/>                                                 | <img width=20/> Jahr <img width=20/>    |
|:--:|:------------------------------------------------------------------------------------|:---------:|
| 1  | [Manuel Lippert](https://github.com/ManeLippert), Paul Schwanitz                    |   2023    |
<!-- | 2  | Dominik Müller, Stefan Barthelmann                                                  |   2023    |
| 3  | Leonhard Schatt, Matteo Kumar                                                       |   2023    |-->

## [Master Praktikum D](https://github.com/Phi-Laboratorys/PPD)

| <img width=70/> | Beschreibung <img width=400/>                                               | <img width=20/> Gruppen <img width=20/> |
|:-------:|:------------------------------------------------------------------------------------|:-----------:|
| HMS     | Hochstauflösende Molekülspektroskopie                                               | [1](https://github.com/Phi-Laboratorys/PPD/blob/main/Versuch_HMS/Manuel_Paul/Versuch_HMS.pdf)        |
| DF      | Dünnfilmprozessierungstechniken und Filmhomogenität                                 | [1](https://github.com/Phi-Laboratorys/PPD/blob/main/Versuch_DF/Manuel_Paul/Versuch_DF.pdf) <!--,[3](https://github.com/Phi-Laboratorys/PPD/blob/main/Versuch_DF/Leo_Matteo/Versuch_DF.pdf)--> |
| RB      | Röntgenbeugung                                                                      | [1](https://github.com/Phi-Laboratorys/PPD/blob/main/Experiment_RB/Manuel_Paul/Experiment_RB.pdf) <!--, [2](https://github.com/Phi-Laboratorys/PPD/blob/main/Versuch_RB/Dominik_Stefan/Versuch_RB.pdf), [3](https://github.com/Phi-Laboratorys/PPD/blob/main/Versuch_RB/Leo_Matteo/Versuch_RB.pdf)-->  |
| TRAS    | Transiente Absorptionsspektroskopie                                                 | [1](https://github.com/Phi-Laboratorys/PPD/blob/main/Experiment_TRAS/Manuel_Paul/Experiment_TRAS.pdf) <!--, [3](https://github.com/Phi-Laboratorys/PPD/blob/main/Versuch_TAS/Leo_Matteo/Versuch_TAS.pdf)-->    |
| NP      | Nanoplasmonik                                                                       | [1](https://github.com/Phi-Laboratorys/PPD/blob/main/Versuch_NP/Manuel_Paul/Versuch_NP.pdf) <!--, [3](https://github.com

File: HG1_NaCl_01_55s_4523.dat
10	7
10.24	8
10.48	7
10.72	5
10.96	7
11.2	0
11.44	10
11.68	6
11.92	8
12.16	5
12.4	6
12.64	7
12.88	4
13.12	4
13.36	9
13.6	13
13.84	7
14.08	14
14.32	6
14.56	15
14.8	8
15.04	4
15.28	13
15.52	7
15.76	14
16	5
16.24	6
16.48	4
16.72	5
16.96	7
17.2	2
17.44	7
17.68	5
17.92	4
18.16	3
18.4	7
18.64	6
18.88	3
19.12	7
19.36	11
19.6	5
19.84	9
20.08	3
20.32	10
20.56	8
20.8	2
21.04	10
21.28	7
21.52	6
21.76	10
22	8
22.24	5
22.48	1
22.72	4
22.96	5
23.2	3
23.44	7
23.68	2
23.92	5
24.16	4
24.4	8
24.64	7
24.88	5
25.12	10
25.36	4
25.6	8
25.84	8
26.08	7
26.32	10
26.56	4
26.8	7
27.04	27
27.28	8
27.52	6
27.76	5
28	8
28.24	4
28.48	5
28.72	4
28.96	2
29.2	7
29.44	8
29.68	5
29.92	10
30.16	8
30.4	10
30.64	7
30.88	6
31.12	12
31.36	386
31.6	117
31.84	11
32.08	7
32.32	6
32.56	5
32.8	7
33.04	6
33.28	9
33.52	4
33.76	6
34	8
34.24	7
34.48	10
34.72	5
34.96	7
35.2	7
35.44	7
35.68	13
35.92	7
36.16	4
36.4	6
36.64	9
36.88	3
37.12	4
37.36	3
37.6	2
37.84	7
38.08	6
38.32	5
38.56	4
38.8	9
39.04	6
39.28	4
39.52	5
39.76	6
40	2
40.24	5
40.48	2
40.72	9
40.96	7
41.2	7
41.44	3
41.68	5
41.92	7
42.16	7
42.4	7
42.64	4
42.88	8
43.12	6
43.36	8
43.6	8
43.84	6
44.08	4
44.32	10
44.56	5
44.8	10
45.04	145
45.28	84
45.52	19
45.76	11
46	4
46.24	7
46.48	8
46.72	10
46.96	5
47.2	5
47.44	5
47.68	4
47.92	5
48.16	3
48.4	6
48.64	9
48.88	7
49.12	6
49.36	9
49.6	7
49.84	6
50.08	3
50.32	6
50.56	7
50.8	5
51.04	8
51.28	7
51.52	9
51.76	5
52	3
52.24	6
52.48	6
52.72	5
52.96	5
53.2	6
53.44	11
53.68	5
53.92	6
54.16	4
54.4	3
54.64	8
54.88	6
55.12	7
55.36	2
55.6	10
55.84	10
56.08	35
56.32	30
56.56	8
56.8	4
57.04	6
57.28	5
57.52	8
57.76	2
58	7
58.24	3
58.48	7
58.72	5
58.96	12
59.2	11
59.44	8
59.68	1
59.92	5
60.16	4
60.4	8
60.64	3
60.88	5
61.12	7
61.36	4
61.6	3
61.84	4
62.08	4
62.32	10
62.56	10
62.8	3
63.04	8
63.28	8
63.52	2
63.76	3
64	6
64.24	6
64.48	9
64.72	9
64.96	9
65.2	7
65.44	7
65.68	32
65.92	11
66.16	11
66.4	6
66.64	10
66.88	8
67.12	3
67.36	9
67.6	2
67.84	3
68.08	9
68.32	4
68.56	7
68.8	9
69.04	10
69.28	10
69.52	6
69.76	10
70	4
70.24	5
70.48	4
70.72	4
70.96	10
71.2	7
71.44	9
71.68	4
71.92	5
72.16	4
72.4	10
72.64	6
72.88	12
73.12	5
73.36	5
73.6	2
73.84	9
74.08	7
74.32	4
74.56	14
74.8	23
75.04	13
75.28	11
75.52	8
75.76	9
76	10
76.24	5
76.48	9
76.72	9
76.96	5
77.2	6
77.44	2
77.68	7
77.92	7
78.16	10
78.4	7
78.64	5
78.88	5
79.12	6
79.36	6
79.6	6
79.84	8
80	12